prompt_number,prompt_image,thisN,thisTrialN,thisRepN,item,number,slider_thinking_content.response,slider_thinking_content.rt,key_resp_thinking_content.keys,key_resp_thinking_content.rt,key_resp_thinking_content.duration,rumination_loop.thisRepN,rumination_loop.thisTrialN,rumination_loop.thisN,rumination_loop.thisIndex,think_content_loop.thisRepN,think_content_loop.thisTrialN,think_content_loop.thisN,think_content_loop.thisIndex,thisRow.t,notes,welcome_screen.started,image_rum_instruct.started,key_resp_welcome.started,welcome_screen.stopped,key_resp_welcome.keys,key_resp_welcome.rt,key_resp_welcome.duration,refresh.started,text_refresh.started,text_refresh.stopped,refresh.stopped,wait4trigger_scanner.started,wait4trigger_text.started,wait4trigger_text.stopped,wait4trigger_scanner.stopped,fake_stimulus.started,fake_stimulus_text.started,fake_stimulus_text.stopped,fake_stimulus.stopped,rumination.started,image_rum.started,rumination.stopped,emotional_level.started,rate_emotion_prompt.started,slider_emotion.started,key_resp_emotion.started,emotional_level.stopped,slider_emotion.response,slider_emotion.rt,Rating,key_resp_emotion.keys,key_resp_emotion.rt,key_resp_emotion.duration,think_content.started,main_body_questionnaire.started,item_text.started,slider_thinking_content.started,key_resp_thinking_content.started,think_content.stopped,think_content_loop.slider_thinking_content.response,think_content_loop.slider_thinking_content.rt,think_content_loop.key_resp_thinking_content.keys,think_content_loop.key_resp_thinking_content.rt,think_content_loop.key_resp_thinking_content.duration,goodbye.started,goodbye_text.started,key_resp_goodbye.started,goodbye.stopped,key_resp_goodbye.keys,key_resp_goodbye.rt,key_resp_goodbye.duration,participant,session,date,expName,psychopyVersion,frameRate,expStart,
,,,,,,,,,,,,,,,,,,,,,,0.009387457999991966,0.020151958000042214,0.020151958000042214,5.066514665999989,k,5.026076790999923,None,,,,,,,,,,,,,,,,,,,,,,,,,,,,,,,,,,,,,,,,,,,,,999,001,2025-06-16_16h09.51.658,rumination_demo,2024.2.4,None,2025-06-16 16h10.28.610020 +0800,
,,,,,,,,,,,,,,,,,,,,,,,,,,,,,5.066567833000022,5.069312375000095,5.363814000000048,5.353285375000041,,,,,,,,,,,,,,,,,,,,,,,,,,,,,,,,,,,,,,,,,999,001,2025-06-16_16h09.51.658,rumination_demo,2024.2.4,None,2025-06-16 16h10.28.610020 +0800,
,,,,,,,,,,,,,,,,,,,,,,,,,,,,,,,,,5.353309875000036,5.363814000000048,6.351634833000048,6.348540000000071,,,,,,,,,,,,,,,,,,,,,,,,,,,,,,,,,,,,,999,001,2025-06-16_16h09.51.658,rumination_demo,2024.2.4,None,2025-06-16 16h10.28.610020 +0800,
,,,,,,,,,,,,,,,,,,,,,,,,,,,,,,,,,,,,,6.348570791000043,6.363823791000073,8.409326749999991,8.348479333,,,,,,,,,,,,,,,,,,,,,,,,,,,,,,,,,999,001,2025-06-16_16h09.51.658,rumination_demo,2024.2.4,None,2025-06-16 16h10.28.610020 +0800,
1,stimuli/rum_prompt_1.png,0,0,0,,,,,,,,0,0,0,0,,,,,8.409326749999991,,,,,,,,,,,,,,,,,,,,,8.406129208000038,8.409326749999991,13.370018250000044,,,,,,,,,,,,,,,,,,,,,,,,,,,,,,999,001,2025-06-16_16h09.51.658,rumination_demo,2024.2.4,None,2025-06-16 16h10.28.610020 +0800,
2,stimuli/rum_prompt_2.png,1,1,0,,,,,,,,0,1,1,1,,,,,13.426542208,,,,,,,,,,,,,,,,,,,,,13.421405291000042,13.426542208,18.370327958000075,,,,,,,,,,,,,,,,,,,,,,,,,,,,,,999,001,2025-06-16_16h09.51.658,rumination_demo,2024.2.4,None,2025-06-16 16h10.28.610020 +0800,
4,stimuli/rum_prompt_4.png,2,2,0,,,,,,,,0,2,2,3,,,,,18.42172933300003,,,,,,,,,,,,,,,,,,,,,18.418977916000017,18.42172933300003,23.370494291,,,,,,,,,,,,,,,,,,,,,,,,,,,,,,999,001,2025-06-16_16h09.51.658,rumination_demo,2024.2.4,None,2025-06-16 16h10.28.610020 +0800,
3,stimuli/rum_prompt_3.png,3,3,0,,,,,,,,0,3,3,2,,,,,23.422200750000002,,,,,,,,,,,,,,,,,,,,,23.418998416000022,23.422200750000002,28.370580750000045,,,,,,,,,,,,,,,,,,,,,,,,,,,,,,999,001,2025-06-16_16h09.51.658,rumination_demo,2024.2.4,None,2025-06-16 16h10.28.610020 +0800,
,,,,,,,,,,,,,,,,,,,,,,,,,,,,,28.370651083000098,28.38184250000006,28.682423040999993,28.66665075000003,,,,,,,,,,,,,,,,,,,,,,,,,,,,,,,,,,,,,,,,,999,001,2025-06-16_16h09.51.658,rumination_demo,2024.2.4,None,2025-06-16 16h10.28.610020 +0800,
,,,,,,,,,,,,,,,,,,,,,,,,,,,,,,,,,,,,,,,,,,,,28.667671666000047,28.682423040999993,28.682423040999993,28.682423040999993,31.42605854100009,None,None,2.0,l,2.7389522080000006,None,,,,,,,,,,,,,,,,,,,999,001,2025-06-16_16h09.51.658,rumination_demo,2024.2.4,None,2025-06-16 16h10.28.610020 +0800,
,,,,,,,,,,,,,,,,,,,,,,,,,,,,,31.42608579099999,31.431810666000047,31.73812779100001,31.716767166000068,,,,,,,,,,,,,,,,,,,,,,,,,,,,,,,,,,,,,,,,,999,001,2025-06-16_16h09.51.658,rumination_demo,2024.2.4,None,2025-06-16 16h10.28.610020 +0800,
,,0,0,0,是关于过去的事情,1,None,None,l,1.343383249999988,None,,,,,0,0,0,0,31.73812779100001,,,,,,,,,33.08365437500004,33.086095500000056,33.39874925000004,33.370906665999996,,,,,,,,,,,,,,,,,,,7.0,,,,31.72543195800006,31.73812779100001,31.73812779100001,31.73812779100001,31.73812779100001,33.083618,None,None,l,1.343383249999988,None,,,,,,,,999,001,2025-06-16_16h09.51.658,rumination_demo,2024.2.4,None,2025-06-16 16h10.28.610020 +0800,
,,1,1,0,是关于将来的事情,2,None,None,k,0.672532541999999,None,,,,,0,1,1,1,33.39874925000004,,,,,,,,,34.07406962499999,34.08206391600004,34.380375957999945,34.36688425,,,,,,,,,,,,,,,,,,,3.0,,,,33.374034832999996,33.39874925000004,33.39874925000004,33.39874925000004,33.39874925000004,34.074033708,None,None,k,0.672532541999999,None,,,,,,,,999,001,2025-06-16_16h09.51.658,rumination_demo,2024.2.4,None,2025-06-16 16h10.28.610020 +0800,
,,2,2,0,是关于我自己的,3,None,None,k,0.6073740419999467,None,,,,,0,2,2,2,34.380375957999945,,,,,,,,,34.991172165999956,34.998784208000075,35.29660575000014,35.283553375,,,,,,,,,,,,,,,,,,,7.0,,,,34.371271500000034,34.380375957999945,34.380375957999945,34.380375957999945,34.380375957999945,34.991134333000105,None,None,k,0.6073740419999467,None,,,,,,,,999,001,2025-06-16_16h09.51.658,rumination_demo,2024.2.4,None,2025-06-16 16h10.28.610020 +0800,
,,3,3,0,是关于他人的,4,None,None,k,0.4990450840000449,None,,,,,0,3,3,3,35.29660575000014,,,,,,,,,35.800565708000136,35.80538579100005,36.11449158300013,36.10031325000011,,,,,,,,,,,,,,,,,,,5.0,,,,35.287376666000114,35.29660575000014,35.29660575000014,35.29660575000014,35.29660575000014,35.800531041,None,None,k,0.4990450840000449,None,,,,,,,,999,001,2025-06-16_16h09.51.658,rumination_demo,2024.2.4,None,2025-06-16 16h10.28.610020 +0800,
,,4,4,0,是正性的、积极的事件,5,None,None,k,0.703326916999913,None,,,,,0,4,4,4,36.11449158300013,,,,,,,,,36.8264827910001,36.83218920799993,37.13009829100008,37.11696183300012,,,,,,,,,,,,,,,,,,,3.0,,,,36.10554300000001,36.11449158300013,36.11449158300013,36.11449158300013,36.11449158300013,36.82644700000003,None,None,k,0.703326916999913,None,,,,,,,,999,001,2025-06-16_16h09.51.658,rumination_demo,2024.2.4,None,2025-06-16 16h10.28.610020 +0800,
,,5,5,0,是负性的、消极的事件,6,None,None,k,0.7232966249998753,None,,,,,0,5,5,5,37.13009829100008,,,,,,,,,37.85992783300014,37.865613499999995,38.16751283299993,38.15051570799994,,,,,,,,,,,,,,,,,,,8.0,,,,37.1207397500001,37.13009829100008,37.13009829100008,37.13009829100008,37.13009829100008,37.85989070800008,None,None,k,0.7232966249998753,None,,,,,,,,999,001,2025-06-16_16h09.51.658,rumination_demo,2024.2.4,None,2025-06-16 16h10.28.610020 +0800,
,,6,6,0,是以图像或意象的形式进行思维,7,None,None,k,0.568118707999929,None,,,,,0,6,6,6,38.16751283299993,,,,,,,,,38.74170575000005,38.749010583000086,39.048631666000006,39.035073458000056,,,,,,,,,,,,,,,,,,,3.0,,,,38.15767454100012,38.16751283299993,38.16751283299993,38.16751283299993,38.16751283299993,38.74166924999997,None,None,k,0.568118707999929,None,,,,,,,,999,001,2025-06-16_16h09.51.658,rumination_demo,2024.2.4,None,2025-06-16 16h10.28.610020 +0800,
,,7,7,0,是以内部言语的形式进行思维,8,None,None,k,0.6467902910001158,None,,,,,0,7,7,7,39.048631666000006,,,,,,,,,39.70283529100004,39.704513250000105,40.00284695800008,39.98923449999995,,,,,,,,,,,,,,,,,,,7.0,,,,39.0395084160001,39.048631666000006,39.048631666000006,39.048631666000006,39.048631666000006,39.70279908300006,None,None,k,0.6467902910001158,None,,,,,,,,999,001,2025-06-16_16h09.51.658,rumination_demo,2024.2.4,None,2025-06-16 16h10.28.610020 +0800,
,,8,8,0,让我感到开心,9,None,None,k,0.8322567089999211,None,,,,,0,8,8,8,40.00284695800008,,,,,,,,,40.83635804100015,40.8514285,41.15184054100007,41.13657637500012,,,,,,,,,,,,,,,,,,,6.0,,,,39.99390666600004,40.00284695800008,40.00284695800008,40.00284695800008,40.00284695800008,40.83631475000004,None,None,k,0.8322567089999211,None,,,,,,,,999,001,2025-06-16_16h09.51.658,rumination_demo,2024.2.4,None,2025-06-16 16h10.28.610020 +0800,
,,9,9,0,让我感到悲伤,10,None,None,k,0.23955833300010454,None,,,,,0,9,9,9,41.15184054100007,,,,,,,,,41.40575475000003,41.4181359160001,41.71841262500004,41.70349758300006,,,,,,,,,,,,,,,,,,,5.0,,,,41.14021716600007,41.15184054100007,41.15184054100007,41.15184054100007,41.15184054100007,41.405717582999955,None,None,k,0.23955833300010454,None,,,,,,,,999,001,2025-06-16_16h09.51.658,rumination_demo,2024.2.4,None,2025-06-16 16h10.28.610020 +0800,
,,10,10,0,有多少是在“走神”,11,None,None,k,0.5138011669998832,None,,,,,0,10,10,10,41.71841262500004,,,,,,,,,42.238264791000006,42.251349457999936,42.55224400000009,42.53658395800005,,,,,,,,,,,,,,,,,,,4.0,,,,41.71052124999994,41.71841262500004,41.71841262500004,41.71841262500004,41.71841262500004,42.23822574999997,None,None,k,0.5138011669998832,None,,,,,,,,999,001,2025-06-16_16h09.51.658,rumination_demo,2024.2.4,None,2025-06-16 16h10.28.610020 +0800,
,,,,,,,,,,,,,,,,,,,,,,,,,,,,,,,,,,,,,,,,,,,,,,,,,,,,,,,,,,,,,,,,,,42.536670208000146,42.55224400000009,42.55224400000009,43.83505512499994,s,1.2706064159999642,None,999,001,2025-06-16_16h09.51.658,rumination_demo,2024.2.4,None,2025-06-16 16h10.28.610020 +0800,
