prompt_number,prompt_image,thisN,thisTrialN,thisRepN,item,number,slider_thinking_content.response,slider_thinking_content.rt,key_resp_thinking_content.keys,key_resp_thinking_content.rt,key_resp_thinking_content.duration,distraction_loop.thisRepN,distraction_loop.thisTrialN,distraction_loop.thisN,distraction_loop.thisIndex,think_content_loop.thisRepN,think_content_loop.thisTrialN,think_content_loop.thisN,think_content_loop.thisIndex,thisRow.t,notes,welcome_screen.started,image_dis_instruct.started,key_resp_welcome.started,welcome_screen.stopped,key_resp_welcome.keys,key_resp_welcome.rt,key_resp_welcome.duration,refresh.started,text_refresh.started,text_refresh.stopped,refresh.stopped,wait4trigger_scanner.started,wait4trigger_text.started,wait4trigger_text.stopped,wait4trigger_scanner.stopped,fake_stimulus.started,fake_stimulus_text.started,fake_stimulus_text.stopped,fake_stimulus.stopped,distraction.started,image_dis.started,distraction.stopped,emotional_level.started,rate_emotion_prompt.started,slider_emotion.started,key_resp_emotion.started,emotional_level.stopped,slider_emotion.response,slider_emotion.rt,Rating,key_resp_emotion.keys,key_resp_emotion.rt,key_resp_emotion.duration,think_content.started,main_body_questionnaire.started,item_text.started,slider_thinking_content.started,key_resp_thinking_content.started,think_content.stopped,think_content_loop.slider_thinking_content.response,think_content_loop.slider_thinking_content.rt,think_content_loop.key_resp_thinking_content.keys,think_content_loop.key_resp_thinking_content.rt,think_content_loop.key_resp_thinking_content.duration,goodbye.started,goodbye_text.started,key_resp_goodbye.started,goodbye.stopped,key_resp_goodbye.keys,key_resp_goodbye.rt,key_resp_goodbye.duration,participant,session,date,expName,psychopyVersion,frameRate,expStart,
,,,,,,,,,,,,,,,,,,,,,,0.010182041000007303,0.015136500000153319,0.015136500000153319,2.460571374999745,k,2.422946540999874,None,,,,,,,,,,,,,,,,,,,,,,,,,,,,,,,,,,,,,,,,,,,,,999,001,2025-06-16_17h29.24.564,distraction_demo,2024.2.4,None,2025-06-16 17h29.32.502609 +0800,
,,,,,,,,,,,,,,,,,,,,,,,,,,,,,2.460623541000132,2.463593000000401,2.759633499999836,2.747522458000276,,,,,,,,,,,,,,,,,,,,,,,,,,,,,,,,,,,,,,,,,999,001,2025-06-16_17h29.24.564,distraction_demo,2024.2.4,None,2025-06-16 17h29.32.502609 +0800,
,,,,,,,,,,,,,,,,,,,,,,,,,,,,,,,,,2.7475620409995827,2.759633499999836,3.7470019579996006,3.744528666000406,,,,,,,,,,,,,,,,,,,,,,,,,,,,,,,,,,,,,999,001,2025-06-16_17h29.24.564,distraction_demo,2024.2.4,None,2025-06-16 17h29.32.502609 +0800,
,,,,,,,,,,,,,,,,,,,,,,,,,,,,,,,,,,,,,3.7445695409996915,3.7470019579996006,5.7871806659995855,5.730681041000025,,,,,,,,,,,,,,,,,,,,,,,,,,,,,,,,,999,001,2025-06-16_17h29.24.564,distraction_demo,2024.2.4,None,2025-06-16 17h29.32.502609 +0800,
1,stimuli/dis_prompt_1.png,0,0,0,,,,,,,,0,0,0,0,,,,,5.7871806659995855,,,,,,,,,,,,,,,,,,,,,5.784902415999568,5.7871806659995855,10.761082791000263,,,,,,,,,,,,,,,,,,,,,,,,,,,,,,999,001,2025-06-16_17h29.24.564,distraction_demo,2024.2.4,None,2025-06-16 17h29.32.502609 +0800,
3,stimuli/dis_prompt_3.png,1,1,0,,,,,,,,0,1,1,2,,,,,10.813533583000208,,,,,,,,,,,,,,,,,,,,,10.810687541000334,10.813533583000208,15.76175562499975,,,,,,,,,,,,,,,,,,,,,,,,,,,,,,999,001,2025-06-16_17h29.24.564,distraction_demo,2024.2.4,None,2025-06-16 17h29.32.502609 +0800,
4,stimuli/dis_prompt_4.png,2,2,0,,,,,,,,0,2,2,3,,,,,15.809443457999805,,,,,,,,,,,,,,,,,,,,,15.805555541000103,15.809443457999805,20.761704958000337,,,,,,,,,,,,,,,,,,,,,,,,,,,,,,999,001,2025-06-16_17h29.24.564,distraction_demo,2024.2.4,None,2025-06-16 17h29.32.502609 +0800,
2,stimuli/dis_prompt_2.png,3,3,0,,,,,,,,0,3,3,1,,,,,20.814776625000377,,,,,,,,,,,,,,,,,,,,,20.81149379099952,20.814776625000377,25.76285212499988,,,,,,,,,,,,,,,,,,,,,,,,,,,,,,999,001,2025-06-16_17h29.24.564,distraction_demo,2024.2.4,None,2025-06-16 17h29.32.502609 +0800,
,,,,,,,,,,,,,,,,,,,,,,,,,,,,,25.76293650000025,25.765030665999802,26.06559987499986,26.049625915999968,,,,,,,,,,,,,,,,,,,,,,,,,,,,,,,,,,,,,,,,,999,001,2025-06-16_17h29.24.564,distraction_demo,2024.2.4,None,2025-06-16 17h29.32.502609 +0800,
,,,,,,,,,,,,,,,,,,,,,,,,,,,,,,,,,,,,,,,,,,,,26.050607707999916,26.06559987499986,26.06559987499986,26.06559987499986,28.086479458000213,None,None,3.0,l,2.019908792000024,None,,,,,,,,,,,,,,,,,,,999,001,2025-06-16_17h29.24.564,distraction_demo,2024.2.4,None,2025-06-16 17h29.32.502609 +0800,
,,,,,,,,,,,,,,,,,,,,,,,,,,,,,28.08650566599954,28.094617208000273,28.40073779100021,28.379337082999882,,,,,,,,,,,,,,,,,,,,,,,,,,,,,,,,,,,,,,,,,999,001,2025-06-16_17h29.24.564,distraction_demo,2024.2.4,None,2025-06-16 17h29.32.502609 +0800,
,,0,0,0,是关于过去的事情,1,None,None,s,0.2098331249999319,None,,,,,0,0,0,0,28.40073779100021,,,,,,,,,28.613002332999713,28.61449729099968,28.911103333000028,28.898912208000183,,,,,,,,,,,,,,,,,,,5.0,,,,28.38826358299957,28.40073779100021,28.40073779100021,28.40073779100021,28.40073779100021,28.61296725000011,None,None,s,0.2098331249999319,None,,,,,,,,999,001,2025-06-16_17h29.24.564,distraction_demo,2024.2.4,None,2025-06-16 17h29.32.502609 +0800,
,,1,1,0,是关于将来的事情,2,None,None,a,1.8453539579995777,None,,,,,0,1,1,1,28.911103333000028,,,,,,,,,30.764484999999695,30.76788354099972,31.07538737499999,31.062769541000307,,,,,,,,,,,,,,,,,,,5.0,,,,28.902174124999874,28.911103333000028,28.911103333000028,28.911103333000028,28.911103333000028,30.764449749999585,None,None,a,1.8453539579995777,None,,,,,,,,999,001,2025-06-16_17h29.24.564,distraction_demo,2024.2.4,None,2025-06-16 17h29.32.502609 +0800,
,,2,2,0,是关于我自己的,3,None,None,a,1.2590279169999121,None,,,,,0,2,2,2,31.07538737499999,,,,,,,,,32.33641824999995,32.3448016250004,32.64254758300012,32.62975195800027,,,,,,,,,,,,,,,,,,,5.0,,,,31.066599582999515,31.07538737499999,31.07538737499999,31.07538737499999,31.07538737499999,32.33638400000018,None,None,a,1.2590279169999121,None,,,,,,,,999,001,2025-06-16_17h29.24.564,distraction_demo,2024.2.4,None,2025-06-16 17h29.32.502609 +0800,
,,3,3,0,是关于他人的,4,None,None,s,0.30498879100014165,None,,,,,0,3,3,3,32.64254758300012,,,,,,,,,32.95466608300012,32.96167762499954,33.260618250000334,33.246482790999835,,,,,,,,,,,,,,,,,,,5.0,,,,32.63333295800021,32.64254758300012,32.64254758300012,32.64254758300012,32.64254758300012,32.95463133300018,None,None,s,0.30498879100014165,None,,,,,,,,999,001,2025-06-16_17h29.24.564,distraction_demo,2024.2.4,None,2025-06-16 17h29.32.502609 +0800,
,,4,4,0,是正性的、积极的事件,5,None,None,a,0.27066512500005047,None,,,,,0,4,4,4,33.260618250000334,,,,,,,,,33.53782379099994,33.54506299999957,33.84265125000002,33.82966062499963,,,,,,,,,,,,,,,,,,,5.0,,,,33.251209416000165,33.260618250000334,33.260618250000334,33.260618250000334,33.260618250000334,33.537790125000356,None,None,a,0.27066512500005047,None,,,,,,,,999,001,2025-06-16_17h29.24.564,distraction_demo,2024.2.4,None,2025-06-16 17h29.32.502609 +0800,
,,5,5,0,是负性的、消极的事件,6,None,None,a,0.17159541699948022,None,,,,,0,5,5,5,33.84265125000002,,,,,,,,,34.02167887500036,34.02835304099972,34.328926707999926,34.313125665999905,,,,,,,,,,,,,,,,,,,5.0,,,,33.8335633329998,33.84265125000002,33.84265125000002,33.84265125000002,33.84265125000002,34.021643791000315,None,None,a,0.17159541699948022,None,,,,,,,,999,001,2025-06-16_17h29.24.564,distraction_demo,2024.2.4,None,2025-06-16 17h29.32.502609 +0800,
,,6,6,0,是以图像或意象的形式进行思维,7,None,None,a,0.20833249999941472,None,,,,,0,6,6,6,34.328926707999926,,,,,,,,,34.546474165999825,34.548358416000156,34.84816725000019,34.83275733299979,,,,,,,,,,,,,,,,,,,5.0,,,,34.319726083000205,34.328926707999926,34.328926707999926,34.328926707999926,34.328926707999926,34.54644091600039,None,None,a,0.20833249999941472,None,,,,,,,,999,001,2025-06-16_17h29.24.564,distraction_demo,2024.2.4,None,2025-06-16 17h29.32.502609 +0800,
,,7,7,0,是以内部言语的形式进行思维,8,None,None,a,0.07935883299978741,None,,,,,0,7,7,7,34.84816725000019,,,,,,,,,34.93026820799969,34.931668041000194,35.23178254100003,35.21639562499968,,,,,,,,,,,,,,,,,,,5.0,,,,34.83691545799957,34.84816725000019,34.84816725000019,34.84816725000019,34.84816725000019,34.93023224999979,None,None,a,0.07935883299978741,None,,,,,,,,999,001,2025-06-16_17h29.24.564,distraction_demo,2024.2.4,None,2025-06-16 17h29.32.502609 +0800,
,,8,8,0,让我感到开心,9,None,None,a,0.21961954200014588,None,,,,,0,8,8,8,35.23178254100003,,,,,,,,,35.45688883299954,35.46175758299978,35.7599393749997,35.74663887499992,,,,,,,,,,,,,,,,,,,5.0,,,,35.22043087499969,35.23178254100003,35.23178254100003,35.23178254100003,35.23178254100003,35.45685166600015,None,None,a,0.21961954200014588,None,,,,,,,,999,001,2025-06-16_17h29.24.564,distraction_demo,2024.2.4,None,2025-06-16 17h29.32.502609 +0800,
,,9,9,0,让我感到悲伤,10,None,None,a,0.18723962500007474,None,,,,,0,9,9,9,35.7599393749997,,,,,,,,,35.95511520800028,35.961806583,36.248875708000014,36.24648220800009,,,,,,,,,,,,,,,,,,,5.0,,,,35.75039087499954,35.7599393749997,35.7599393749997,35.7599393749997,35.7599393749997,35.955081332999725,None,None,a,0.18723962500007474,None,,,,,,,,999,001,2025-06-16_17h29.24.564,distraction_demo,2024.2.4,None,2025-06-16 17h29.32.502609 +0800,
,,,,,,,,,,,,,,,,,,,,,,,,,,,,,,,,,,,,,,,,,,,,,,,,,,,,,,,,,,,,,,,,,,36.24655270800031,36.248875708000014,36.248875708000014,36.480850582999665,a,0.2228968330000498,None,999,001,2025-06-16_17h29.24.564,distraction_demo,2024.2.4,None,2025-06-16 17h29.32.502609 +0800,
